Participant_ID,File_Name,Session,List,Type_Trial,Trial_Nbr,Target,RT,Response_Trial,Comment,Date_Correction,Assessor_Name,Processed
5a302,5a302_session1_lista_naming_trial001_pepper.wav,1,a,naming,1,pepper,-1,wrong_word,"red pepper, also disfluency",Dec  7 2022 16:50:29,Agnieszka,1
5a302,5a302_session1_lista_naming_trial002_computer.wav,1,a,naming,2,computer,1081,correct,talking to someone in the background,Dec  7 2022 16:54:09,Agnieszka,1
5a302,5a302_session1_lista_naming_trial003_olive.wav,1,a,naming,3,olive,1172,correct,NA,Dec  7 2022 16:55:32,Agnieszka,1
5a302,5a302_session1_lista_naming_trial004_suit.wav,1,a,naming,4,suit,901,correct,NA,Dec  7 2022 16:56:14,Agnieszka,1
5a302,5a302_session1_lista_naming_trial005_hippo.wav,1,a,naming,5,hippo,1206,correct,NA,Dec  7 2022 16:56:52,Agnieszka,1
5a302,5a302_session1_lista_naming_trial006_cork.wav,1,a,naming,6,cork,914,correct,NA,Dec  7 2022 16:57:28,Agnieszka,1
5a302,5a302_session1_lista_naming_trial007_tray.wav,1,a,naming,7,tray,932,correct,NA,Dec  7 2022 16:57:51,Agnieszka,1
5a302,5a302_session1_lista_naming_trial008_clown.wav,1,a,naming,8,clown,830,correct,NA,Dec  7 2022 16:58:46,Agnieszka,1
5a302,5a302_session1_lista_naming_trial009_arm.wav,1,a,naming,9,arm,1310,correct,NA,Dec  7 2022 16:59:02,Agnieszka,1
5a302,5a302_session1_lista_naming_trial010_knife.wav,1,a,naming,10,knife,963,correct,NA,Dec  7 2022 16:59:27,Agnieszka,1
5a302,5a302_session1_lista_naming_trial011_nest.wav,1,a,naming,11,nest,1114,correct,NA,Dec  7 2022 16:59:52,Agnieszka,1
5a302,5a302_session1_lista_naming_trial012_hat.wav,1,a,naming,12,hat,1101,correct,NA,Dec  7 2022 17:00:16,Agnieszka,1
5a302,5a302_session1_lista_naming_trial013_comb.wav,1,a,naming,13,comb,1088,correct,NA,Dec  7 2022 17:00:42,Agnieszka,1
5a302,5a302_session1_lista_naming_trial014_flipper.wav,1,a,naming,14,flipper,1497,correct,laughing,Dec  7 2022 17:01:53,Agnieszka,1
5a302,5a302_session1_lista_naming_trial015_pineapple.wav,1,a,naming,15,pineapple,979,correct,NA,Dec  7 2022 17:03:23,Agnieszka,1
5a302,5a302_session1_lista_naming_trial016_bullet.wav,1,a,naming,16,bullet,1193,correct,NA,Dec  7 2022 17:04:25,Agnieszka,1
5a302,5a302_session1_lista_naming_trial017_glove.wav,1,a,naming,17,glove,867,correct,NA,Dec  7 2022 17:05:55,Agnieszka,1
5a302,5a302_session1_lista_naming_trial018_island.wav,1,a,naming,18,island,871,correct,NA,Dec  7 2022 17:11:28,Agnieszka,1
5a302,5a302_session1_lista_naming_trial019_key.wav,1,a,naming,19,key,953,correct,NA,Dec  7 2022 17:11:44,Agnieszka,1
5a302,5a302_session1_lista_naming_trial020_beak.wav,1,a,naming,20,beak,1978,correct,NA,Dec  7 2022 17:11:57,Agnieszka,1
5a302,5a302_session1_lista_naming_trial021_tiger.wav,1,a,naming,21,tiger,918,correct,NA,Dec  7 2022 17:12:13,Agnieszka,1
5a302,5a302_session1_lista_naming_trial022_fork.wav,1,a,naming,22,fork,1419,correct,NA,Dec  7 2022 17:15:25,Agnieszka,1
5a302,5a302_session1_lista_naming_trial023_carrot.wav,1,a,naming,23,carrot,806,correct,NA,Dec  7 2022 17:15:50,Agnieszka,1
5a302,5a302_session1_lista_naming_trial024_mountain.wav,1,a,naming,24,mountain,1219,uncertain,NA,Dec  7 2022 17:17:46,Agnieszka,1
5a302,5a302_session1_lista_naming_trial025_kiwi.wav,1,a,naming,25,kiwi,907,correct,NA,Dec  7 2022 17:18:10,Agnieszka,1
5a302,5a302_session1_lista_naming_trial026_bone.wav,1,a,naming,26,bone,1517,correct,NA,Dec  7 2022 17:18:53,Agnieszka,1
5a302,5a302_session1_lista_naming_trial027_tunnel.wav,1,a,naming,27,tunnel,1955,correct,NA,Dec  7 2022 17:21:22,Agnieszka,1
5a302,5a302_session1_lista_naming_trial028_mermaid.wav,1,a,naming,28,mermaid,964,correct,NA,Dec  7 2022 17:22:07,Agnieszka,1
5a302,5a302_session1_lista_naming_trial029_sausage.wav,1,a,naming,29,sausage,893,correct,NA,Dec  7 2022 17:23:20,Agnieszka,1
5a302,5a302_session1_lista_naming_trial030_drawer.wav,1,a,naming,30,drawer,1382,correct,NA,Dec  7 2022 17:23:48,Agnieszka,1
5a302,5a302_session1_lista_naming_trial031_rabbit.wav,1,a,naming,31,rabbit,1412,correct,NA,Dec  7 2022 17:24:19,Agnieszka,1
5a302,5a302_session1_lista_naming_trial032_wheelbarrow.wav,1,a,naming,32,wheelbarrow,1847,correct,NA,Dec  7 2022 17:24:46,Agnieszka,1
5a302,5a302_session1_lista_naming_trial033_basket.wav,1,a,naming,33,basket,1182,correct,NA,Dec  7 2022 17:25:26,Agnieszka,1
5a302,5a302_session1_lista_naming_trial034_dress.wav,1,a,naming,34,dress,2433,disfluency,NA,Dec  7 2022 17:25:53,Agnieszka,1
5a302,5a302_session1_lista_naming_trial035_sweet.wav,1,a,naming,35,sweet,1362,uncertain,NA,Dec  7 2022 17:26:18,Agnieszka,1
5a302,5a302_session1_lista_naming_trial036_pocket.wav,1,a,naming,36,pocket,923,correct,NA,Dec  7 2022 17:26:39,Agnieszka,1
5a302,5a302_session1_lista_naming_trial037_medal.wav,1,a,naming,37,medal,888,correct,NA,Dec  7 2022 17:27:05,Agnieszka,1
5a302,5a302_session1_lista_naming_trial038_book.wav,1,a,naming,38,book,922,correct,NA,Dec  7 2022 17:27:38,Agnieszka,1
5a302,5a302_session1_lista_naming_trial039_squirrel.wav,1,a,naming,39,squirrel,1992,correct,NA,Dec  7 2022 17:27:55,Agnieszka,1
5a302,5a302_session1_lista_naming_trial040_donkey.wav,1,a,naming,40,donkey,-1,wrong_word,NA,Dec  7 2022 17:28:09,Agnieszka,1
5a302,5a302_session1_lista_naming_trial041_swan.wav,1,a,naming,41,swan,-1,uncertain,NA,Dec  7 2022 17:28:31,Agnieszka,1
5a302,5a302_session1_lista_naming_trial042_lung.wav,1,a,naming,42,lung,900,correct,NA,Dec  7 2022 17:29:01,Agnieszka,1
5a302,5a302_session1_lista_naming_trial043_sword.wav,1,a,naming,43,sword,1020,correct,NA,Dec  7 2022 17:29:17,Agnieszka,1
5a302,5a302_session1_lista_naming_trial044_teacher.wav,1,a,naming,44,teacher,837,correct,NA,Dec  7 2022 17:29:57,Agnieszka,1
5a302,5a302_session1_lista_naming_trial045_camel.wav,1,a,naming,45,camel,1337,correct,NA,Dec  7 2022 17:30:54,Agnieszka,1
5a302,5a302_session1_lista_naming_trial046_tap.wav,1,a,naming,46,tap,891,correct,NA,Dec  7 2022 17:31:08,Agnieszka,1
5a302,5a302_session1_lista_naming_trial047_kitchen.wav,1,a,naming,47,kitchen,870,correct,NA,Dec  7 2022 17:31:31,Agnieszka,1
5a302,5a302_session1_lista_naming_trial048_owl.wav,1,a,naming,48,owl,1389,uncertain,NA,Dec  7 2022 17:31:54,Agnieszka,1
5a302,5a302_session1_lista_naming_trial049_lighthouse.wav,1,a,naming,49,lighthouse,2298,correct,NA,Dec  7 2022 17:32:14,Agnieszka,1
5a302,5a302_session1_lista_naming_trial050_battery.wav,1,a,naming,50,battery,933,correct,NA,Dec  7 2022 17:32:39,Agnieszka,1
5a302,5a302_session1_lista_naming_trial051_zebra.wav,1,a,naming,51,zebra,1068,correct,NA,Dec  7 2022 17:33:36,Agnieszka,1
5a302,5a302_session1_lista_naming_trial052_bottle.wav,1,a,naming,52,bottle,1067,correct,NA,Dec  7 2022 17:33:51,Agnieszka,1
5a302,5a302_session1_lista_naming_trial053_magnet.wav,1,a,naming,53,magnet,842,correct,NA,Dec  7 2022 17:34:33,Agnieszka,1
5a302,5a302_session1_lista_naming_trial054_tongue.wav,1,a,naming,54,tongue,1368,correct,"starts with correct word, then says 'no, mouth'",Dec  7 2022 17:35:20,Agnieszka,1
5a302,5a302_session1_lista_naming_trial055_candle.wav,1,a,naming,55,candle,1109,correct,NA,Dec  7 2022 17:35:53,Agnieszka,1
5a302,5a302_session1_lista_naming_trial056_skirt.wav,1,a,naming,56,skirt,852,correct,NA,Dec  7 2022 17:38:15,Agnieszka,1
5a302,5a302_session1_lista_naming_trial057_soap.wav,1,a,naming,57,soap,891,correct,NA,Dec  7 2022 17:39:05,Agnieszka,1
5a302,5a302_session1_lista_naming_trial058_elbow.wav,1,a,naming,58,elbow,-1,disfluency,NA,Dec  7 2022 17:39:14,Agnieszka,1
5a302,5a302_session1_lista_naming_trial059_wave.wav,1,a,naming,59,wave,-1,wrong_word,'waves' (and uncertain),Dec  7 2022 17:39:57,Agnieszka,1
5a302,5a302_session1_lista_naming_trial060_tomato.wav,1,a,naming,60,tomato,1022,correct,NA,Dec  7 2022 17:40:15,Agnieszka,1
5a302,5a302_session1_lista_naming_trial061_saw.wav,1,a,naming,61,saw,1129,correct,NA,Dec  7 2022 17:40:25,Agnieszka,1
5a302,5a302_session1_lista_naming_trial062_compass.wav,1,a,naming,62,compass,-1,no_resp,NA,Dec  7 2022 17:40:48,Agnieszka,1
5a302,5a302_session1_lista_naming_trial063_train.wav,1,a,naming,63,train,-1,wrong_word,"starts with the name of the previous picture, then correct",Dec  7 2022 17:41:39,Agnieszka,1
5a302,5a302_session1_lista_naming_trial064_flag.wav,1,a,naming,64,flag,1559,correct,NA,Dec  7 2022 17:42:18,Agnieszka,1
5a302,5a302_session1_lista_naming_trial065_circle.wav,1,a,naming,65,circle,771,correct,NA,Dec  7 2022 17:42:50,Agnieszka,1
5a302,5a302_session1_lista_naming_trial066_snake.wav,1,a,naming,66,snake,773,correct,NA,Dec  7 2022 17:43:22,Agnieszka,1
5a302,5a302_session1_lista_naming_trial067_potato.wav,1,a,naming,67,potato,827,correct,NA,Dec  7 2022 17:43:51,Agnieszka,1
5a302,5a302_session1_lista_naming_trial068_lighter.wav,1,a,naming,68,lighter,-1,uncertain,NA,Dec  7 2022 17:44:02,Agnieszka,1
5a302,5a302_session1_lista_naming_trial069_ear.wav,1,a,naming,69,ear,932,correct,NA,Dec  7 2022 17:44:55,Agnieszka,1
5a302,5a302_session1_lista_naming_trial070_fireplace.wav,1,a,naming,70,fireplace,-1,no_resp,NA,Dec  7 2022 17:45:05,Agnieszka,1
5a302,5a302_session1_lista_naming_trial071_fridge.wav,1,a,naming,71,fridge,1626,correct,NA,Dec  7 2022 17:46:06,Agnieszka,1
5a302,5a302_session1_lista_naming_trial072_shower.wav,1,a,naming,72,shower,1010,correct,NA,Dec  7 2022 17:46:15,Agnieszka,1
5a302,5a302_session1_lista_naming_trial073_bull.wav,1,a,naming,73,bull,1388,correct,NA,Dec  7 2022 17:46:27,Agnieszka,1
5a302,5a302_session1_lista_naming_trial074_map.wav,1,a,naming,74,map,1254,correct,NA,Dec  7 2022 17:46:47,Agnieszka,1
5a302,5a302_session1_lista_naming_trial075_mouth.wav,1,a,naming,75,mouth,1254,correct,NA,Dec  7 2022 17:47:08,Agnieszka,1
5a302,5a302_session1_lista_naming_trial076_tambourine.wav,1,a,naming,76,tambourine,-1,wrong_word,NA,Dec  7 2022 17:47:19,Agnieszka,1
5a302,5a302_session1_lista_naming_trial077_submarine.wav,1,a,naming,77,submarine,-1,no_resp,NA,Dec  7 2022 17:47:29,Agnieszka,1
5a302,5a302_session1_lista_naming_trial078_pipe.wav,1,a,naming,78,pipe,2852,correct,cut off in the end,Dec  7 2022 17:47:59,Agnieszka,1
5a302,5a302_session1_lista_naming_trial079_fairy.wav,1,a,naming,79,fairy,1250,correct,NA,Dec  7 2022 17:49:07,Agnieszka,1
5a302,5a302_session1_lista_naming_trial080_scissors.wav,1,a,naming,80,scissors,766,correct,NA,Dec  7 2022 17:49:32,Agnieszka,1
5a302,5a302_session1_lista_naming_trial081_arrow.wav,1,a,naming,81,arrow,808,correct,NA,Dec  7 2022 17:50:14,Agnieszka,1
5a302,5a302_session1_lista_naming_trial082_windmill.wav,1,a,naming,82,windmill,1519,correct,NA,Dec  7 2022 17:50:29,Agnieszka,1
5a302,5a302_session1_lista_naming_trial083_gym.wav,1,a,naming,83,gym,1078,correct,NA,Dec  7 2022 17:50:48,Agnieszka,1
5a302,5a302_session1_lista_naming_trial084_star.wav,1,a,naming,84,star,736,correct,NA,Dec  7 2022 17:51:00,Agnieszka,1
5a302,5a302_session1_lista_naming_trial085_zip.wav,1,a,naming,85,zip,1002,correct,NA,Dec  7 2022 17:51:27,Agnieszka,1
5a302,5a302_session1_lista_naming_trial086_puppet.wav,1,a,naming,86,puppet,-1,no_resp,NA,Dec  7 2022 17:51:38,Agnieszka,1
5a302,5a302_session1_lista_naming_trial087_kangaroo.wav,1,a,naming,87,kangaroo,941,uncertain,I hear 'tangaroo',Dec  7 2022 17:53:38,Agnieszka,1
5a302,5a302_session1_lista_naming_trial088_doctor.wav,1,a,naming,88,doctor,958,correct,NA,Dec  7 2022 17:54:09,Agnieszka,1
5a302,5a302_session1_lista_naming_trial089_butter.wav,1,a,naming,89,butter,1013,correct,NA,Dec  7 2022 17:54:31,Agnieszka,1
5a302,5a302_session1_lista_naming_trial090_limo.wav,1,a,naming,90,limo,963,correct,NA,Dec  7 2022 17:54:49,Agnieszka,1
5a302,5a302_session1_lista_naming_trial091_butterfly.wav,1,a,naming,91,butterfly,1054,correct,NA,Dec  7 2022 17:55:12,Agnieszka,1
5a302,5a302_session1_lista_naming_trial092_rocket.wav,1,a,naming,92,rocket,797,correct,NA,Dec  7 2022 17:55:32,Agnieszka,1
5a302,5a302_session1_lista_naming_trial093_kite.wav,1,a,naming,93,kite,1175,correct,NA,Dec  7 2022 17:55:55,Agnieszka,1
5a302,5a302_session1_lista_naming_trial094_triangle.wav,1,a,naming,94,triangle,781,correct,NA,Dec  7 2022 17:56:26,Agnieszka,1
5a302,5a302_session1_lista_naming_trial095_helicopter.wav,1,a,naming,95,helicopter,811,correct,NA,Dec  7 2022 17:56:46,Agnieszka,1
5a302,5a302_session1_lista_naming_trial096_fence.wav,1,a,naming,96,fence,1222,correct,NA,Dec  7 2022 17:57:20,Agnieszka,1
5a302,5a302_session1_lista_naming_trial097_avocado.wav,1,a,naming,97,avocado,821,correct,NA,Dec  7 2022 17:57:45,Agnieszka,1
5a302,5a302_session1_lista_naming_trial098_tie.wav,1,a,naming,98,tie,782,correct,NA,Dec  7 2022 17:59:17,Agnieszka,1
5a302,5a302_session1_lista_naming_trial099_heel.wav,1,a,naming,99,heel,1020,correct,NA,Dec  7 2022 17:59:30,Agnieszka,1
5a302,5a302_session1_lista_naming_trial100_castle.wav,1,a,naming,100,castle,1081,correct,NA,Dec  7 2022 17:59:43,Agnieszka,1
5a302,5a302_session1_lista_naming_trial101_koala.wav,1,a,naming,101,koala,1576,correct,NA,Dec  7 2022 18:00:02,Agnieszka,1
5a302,5a302_session1_lista_naming_trial102_boxer.wav,1,a,naming,102,boxer,-1,wrong_word,'boxing',Dec  7 2022 18:00:45,Agnieszka,1
5a302,5a302_session1_lista_naming_trial103_dummy.wav,1,a,naming,103,dummy,-1,uncertain,also cut off,Dec  7 2022 18:01:04,Agnieszka,1
5a302,5a302_session1_lista_naming_trial104_whale.wav,1,a,naming,104,whale,1641,correct,but starts with end of previous word,Dec  7 2022 18:01:50,Agnieszka,1
5a302,5a302_session1_lista_naming_trial105_sun.wav,1,a,naming,105,sun,1093,correct,NA,Dec  7 2022 18:02:14,Agnieszka,1
5a302,5a302_session1_lista_naming_trial106_thumb.wav,1,a,naming,106,thumb,1010,correct,NA,Dec  7 2022 18:03:06,Agnieszka,1
5a302,5a302_session1_lista_naming_trial107_fox.wav,1,a,naming,107,fox,1284,correct,NA,Dec  7 2022 18:03:23,Agnieszka,1
5a302,5a302_session1_lista_naming_trial108_flower.wav,1,a,naming,108,flower,929,correct,NA,Dec  7 2022 18:03:57,Agnieszka,1
5a302,5a302_session1_lista_naming_trial109_bench.wav,1,a,naming,109,bench,810,correct,NA,Dec  7 2022 18:04:26,Agnieszka,1
5a302,5a302_session1_lista_naming_trial110_rose.wav,1,a,naming,110,rose,887,correct,NA,Dec  7 2022 18:05:02,Agnieszka,1
5a302,5a302_session1_lista_naming_trial111_tattoo.wav,1,a,naming,111,tattoo,2011,correct,NA,Dec  7 2022 18:05:18,Agnieszka,1
5a302,5a302_session1_lista_naming_trial112_crab.wav,1,a,naming,112,crab,912,correct,NA,Dec  7 2022 18:05:28,Agnieszka,1
5a302,5a302_session1_lista_naming_trial113_onion.wav,1,a,naming,113,onion,1522,correct,NA,Dec  7 2022 18:05:39,Agnieszka,1
5a302,5a302_session1_lista_naming_trial114_lamp.wav,1,a,naming,114,lamp,1026,correct,NA,Dec  7 2022 18:05:56,Agnieszka,1
5a302,5a302_session1_lista_naming_trial115_plumber.wav,1,a,naming,115,plumber,1145,correct,NA,Dec  7 2022 18:06:11,Agnieszka,1
5a302,5a302_session1_lista_naming_trial116_goat.wav,1,a,naming,116,goat,1143,correct,NA,Dec  7 2022 18:06:24,Agnieszka,1
5a302,5a302_session1_lista_naming_trial117_bib.wav,1,a,naming,117,bib,1039,correct,NA,Dec  7 2022 18:06:43,Agnieszka,1
5a302,5a302_session1_lista_naming_trial118_rhino.wav,1,a,naming,118,rhino,1051,correct,NA,Dec  7 2022 18:06:59,Agnieszka,1
5a302,5a302_session1_lista_naming_trial119_bus.wav,1,a,naming,119,bus,1106,correct,NA,Dec  7 2022 18:07:13,Agnieszka,1
5a302,5a302_session1_lista_naming_trial120_apple.wav,1,a,naming,120,apple,1170,correct,NA,Dec  7 2022 18:07:23,Agnieszka,1
5a302,5a302_session1_lista_naming_trial121_coat.wav,1,a,naming,121,coat,863,correct,NA,Dec  7 2022 18:07:47,Agnieszka,1
5a302,5a302_session1_lista_naming_trial122_tractor.wav,1,a,naming,122,tractor,887,correct,NA,Dec  7 2022 18:08:16,Agnieszka,1
5a302,5a302_session1_lista_naming_trial123_drum.wav,1,a,naming,123,drum,1144,correct,NA,Dec  7 2022 18:09:27,Agnieszka,1
5a302,5a302_session1_lista_naming_trial124_shield.wav,1,a,naming,124,shield,824,correct,NA,Dec  7 2022 18:09:54,Agnieszka,1
5a302,5a302_session1_lista_naming_trial125_tree.wav,1,a,naming,125,tree,824,correct,NA,Dec  7 2022 18:10:03,Agnieszka,1
5a302,5a302_session1_lista_naming_trial126_suitcase.wav,1,a,naming,126,suitcase,816,correct,NA,Dec  7 2022 18:10:24,Agnieszka,1
5a302,5a302_session1_lista_naming_trial127_dice.wav,1,a,naming,127,dice,850,correct,NA,Dec  7 2022 18:10:37,Agnieszka,1
5a302,5a302_session1_lista_naming_trial128_ghost.wav,1,a,naming,128,ghost,1173,correct,NA,Dec  7 2022 18:10:48,Agnieszka,1
5a302,5a302_session1_lista_naming_trial129_queen.wav,1,a,naming,129,queen,1139,correct,NA,Dec  7 2022 18:10:59,Agnieszka,1
5a302,5a302_session1_lista_naming_trial130_jellyfish.wav,1,a,naming,130,jellyfish,948,correct,NA,Dec  7 2022 18:11:09,Agnieszka,1
5a302,5a302_session1_lista_naming_trial131_ruler.wav,1,a,naming,131,ruler,819,correct,NA,Dec  7 2022 18:11:18,Agnieszka,1
5a302,5a302_session1_lista_naming_trial132_net.wav,1,a,naming,132,net,814,correct,NA,Dec  7 2022 18:11:35,Agnieszka,1
5a302,5a302_session1_lista_naming_trial133_bike.wav,1,a,naming,133,bike,-1,wrong_word,'bicycle',Dec  7 2022 18:11:51,Agnieszka,1
5a302,5a302_session1_lista_naming_trial134_bear.wav,1,a,naming,134,bear,1353,correct,NA,Dec  7 2022 18:12:10,Agnieszka,1
5a302,5a302_session1_lista_naming_trial135_bracelet.wav,1,a,naming,135,bracelet,1604,correct,NA,Dec  7 2022 18:12:25,Agnieszka,1
5a302,5a302_session1_lista_naming_trial136_robot.wav,1,a,naming,136,robot,1496,correct,NA,Dec  7 2022 18:12:38,Agnieszka,1
5a302,5a302_session1_lista_naming_trial137_cherry.wav,1,a,naming,137,cherry,1119,correct,NA,Dec  7 2022 18:12:48,Agnieszka,1
5a302,5a302_session1_lista_naming_trial138_peg.wav,1,a,naming,138,peg,1491,correct,NA,Dec  7 2022 18:13:02,Agnieszka,1
5a302,5a302_session1_lista_naming_trial139_pencil.wav,1,a,naming,139,pencil,1369,correct,NA,Dec  7 2022 18:13:21,Agnieszka,1
5a302,5a302_session1_lista_naming_trial140_wing.wav,1,a,naming,140,wing,1334,correct,NA,Dec  7 2022 18:13:48,Agnieszka,1
5a302,5a302_session1_lista_naming_trial141_orange.wav,1,a,naming,141,orange,1970,correct,NA,Dec  7 2022 18:14:04,Agnieszka,1
5a302,5a302_session1_lista_naming_trial142_doughnut.wav,1,a,naming,142,doughnut,1332,correct,NA,Dec  7 2022 18:14:17,Agnieszka,1
5a302,5a302_session1_lista_naming_trial143_wall.wav,1,a,naming,143,wall,1807,correct,NA,Dec  7 2022 18:14:33,Agnieszka,1
5a302,5a302_session1_lista_naming_trial144_bell.wav,1,a,naming,144,bell,1279,correct,NA,Dec  7 2022 18:14:56,Agnieszka,1
5a302,5a302_session1_lista_naming_trial145_caterpillar.wav,1,a,naming,145,caterpillar,1636,correct,NA,Dec  7 2022 18:15:22,Agnieszka,1
5a302,5a302_session1_lista_naming_trial146_judge.wav,1,a,naming,146,judge,-1,wrong_word,'lawyer' then 'judge',Dec  7 2022 18:15:41,Agnieszka,1
5a302,5a302_session1_lista_naming_trial147_curtain.wav,1,a,naming,147,curtain,938,correct,NA,Dec  7 2022 18:15:55,Agnieszka,1
5a302,5a302_session1_lista_naming_trial148_lawnmower.wav,1,a,naming,148,lawnmower,-1,wrong_word,NA,Dec  7 2022 18:16:08,Agnieszka,1
5a302,5a302_session1_lista_naming_trial149_pear.wav,1,a,naming,149,pear,1015,correct,"starts with 'dunno', probably about previous trial",Dec  7 2022 18:16:57,Agnieszka,1
5a302,5a302_session1_lista_naming_trial150_shoe.wav,1,a,naming,150,shoe,855,wrong_word,'shoes' then 'shoe',Dec  7 2022 18:17:15,Agnieszka,1
