Participant_ID,File_Name,Session,List,Type_Trial,Trial_Nbr,Target,RT,Response_Trial,Comment,Date_Correction,Assessor_Name,Processed
63207,63207_session1_lista_naming_trial001_dress.wav,1,a,naming,1,dress,778,correct,NA,Dec 16 2022 10:44:37,Agnieszka,1
63207,63207_session1_lista_naming_trial002_castle.wav,1,a,naming,2,castle,932,correct,NA,Dec 16 2022 10:44:52,Agnieszka,1
63207,63207_session1_lista_naming_trial003_caterpillar.wav,1,a,naming,3,caterpillar,1119,correct,NA,Dec 16 2022 10:45:00,Agnieszka,1
63207,63207_session1_lista_naming_trial004_limo.wav,1,a,naming,4,limo,928,correct,NA,Dec 16 2022 10:45:08,Agnieszka,1
63207,63207_session1_lista_naming_trial005_potato.wav,1,a,naming,5,potato,874,correct,NA,Dec 16 2022 10:45:17,Agnieszka,1
63207,63207_session1_lista_naming_trial006_suit.wav,1,a,naming,6,suit,1215,correct,NA,Dec 16 2022 10:45:25,Agnieszka,1
63207,63207_session1_lista_naming_trial007_lawnmower.wav,1,a,naming,7,lawnmower,1166,correct,NA,Dec 16 2022 10:45:36,Agnieszka,1
63207,63207_session1_lista_naming_trial008_apple.wav,1,a,naming,8,apple,1116,correct,NA,Dec 16 2022 10:45:45,Agnieszka,1
63207,63207_session1_lista_naming_trial009_skirt.wav,1,a,naming,9,skirt,-1,disfluency,NA,Dec 16 2022 10:45:52,Agnieszka,1
63207,63207_session1_lista_naming_trial010_kiwi.wav,1,a,naming,10,kiwi,-1,disfluency,starts with 'uh',Dec 16 2022 10:46:10,Agnieszka,1
63207,63207_session1_lista_naming_trial011_windmill.wav,1,a,naming,11,windmill,1062,correct,NA,Dec 16 2022 10:46:20,Agnieszka,1
63207,63207_session1_lista_naming_trial012_rose.wav,1,a,naming,12,rose,876,correct,NA,Dec 16 2022 10:46:34,Agnieszka,1
63207,63207_session1_lista_naming_trial013_puppet.wav,1,a,naming,13,puppet,-1,no_resp,NA,Dec 16 2022 10:46:43,Agnieszka,1
63207,63207_session1_lista_naming_trial014_tie.wav,1,a,naming,14,tie,998,correct,NA,Dec 16 2022 10:47:00,Agnieszka,1
63207,63207_session1_lista_naming_trial015_arrow.wav,1,a,naming,15,arrow,802,correct,NA,Dec 16 2022 10:47:13,Agnieszka,1
63207,63207_session1_lista_naming_trial016_jellyfish.wav,1,a,naming,16,jellyfish,919,correct,NA,Dec 16 2022 10:47:24,Agnieszka,1
63207,63207_session1_lista_naming_trial017_sun.wav,1,a,naming,17,sun,963,correct,NA,Dec 16 2022 10:47:31,Agnieszka,1
63207,63207_session1_lista_naming_trial018_tray.wav,1,a,naming,18,tray,944,correct,NA,Dec 16 2022 10:47:38,Agnieszka,1
63207,63207_session1_lista_naming_trial019_hat.wav,1,a,naming,19,hat,1004,correct,NA,Dec 16 2022 10:47:45,Agnieszka,1
63207,63207_session1_lista_naming_trial020_butter.wav,1,a,naming,20,butter,1206,correct,NA,Dec 16 2022 10:48:01,Agnieszka,1
63207,63207_session1_lista_naming_trial021_plumber.wav,1,a,naming,21,plumber,1104,correct,NA,Dec 16 2022 10:48:33,Agnieszka,1
63207,63207_session1_lista_naming_trial022_kite.wav,1,a,naming,22,kite,960,correct,NA,Dec 16 2022 10:48:41,Agnieszka,1
63207,63207_session1_lista_naming_trial023_owl.wav,1,a,naming,23,owl,945,correct,NA,Dec 16 2022 10:48:55,Agnieszka,1
63207,63207_session1_lista_naming_trial024_book.wav,1,a,naming,24,book,797,correct,NA,Dec 16 2022 10:49:02,Agnieszka,1
63207,63207_session1_lista_naming_trial025_kangaroo.wav,1,a,naming,25,kangaroo,879,correct,NA,Dec 16 2022 10:49:20,Agnieszka,1
63207,63207_session1_lista_naming_trial026_computer.wav,1,a,naming,26,computer,811,correct,NA,Dec 16 2022 10:49:38,Agnieszka,1
63207,63207_session1_lista_naming_trial027_fireplace.wav,1,a,naming,27,fireplace,1087,correct,NA,Dec 16 2022 10:49:49,Agnieszka,1
63207,63207_session1_lista_naming_trial028_train.wav,1,a,naming,28,train,1068,correct,NA,Dec 16 2022 10:49:59,Agnieszka,1
63207,63207_session1_lista_naming_trial029_comb.wav,1,a,naming,29,comb,917,correct,NA,Dec 16 2022 10:50:13,Agnieszka,1
63207,63207_session1_lista_naming_trial030_lighter.wav,1,a,naming,30,lighter,1157,correct,NA,Dec 16 2022 10:50:26,Agnieszka,1
63207,63207_session1_lista_naming_trial031_orange.wav,1,a,naming,31,orange,973,correct,NA,Dec 16 2022 10:50:38,Agnieszka,1
63207,63207_session1_lista_naming_trial032_camel.wav,1,a,naming,32,camel,931,correct,NA,Dec 16 2022 10:50:46,Agnieszka,1
63207,63207_session1_lista_naming_trial033_ghost.wav,1,a,naming,33,ghost,1106,correct,NA,Dec 16 2022 10:50:55,Agnieszka,1
63207,63207_session1_lista_naming_trial034_basket.wav,1,a,naming,34,basket,1286,correct,NA,Dec 16 2022 10:51:08,Agnieszka,1
63207,63207_session1_lista_naming_trial035_swan.wav,1,a,naming,35,swan,947,correct,NA,Dec 16 2022 10:51:17,Agnieszka,1
63207,63207_session1_lista_naming_trial036_robot.wav,1,a,naming,36,robot,1138,correct,NA,Dec 16 2022 10:51:27,Agnieszka,1
63207,63207_session1_lista_naming_trial037_beak.wav,1,a,naming,37,beak,963,correct,NA,Dec 16 2022 10:51:34,Agnieszka,1
63207,63207_session1_lista_naming_trial038_rabbit.wav,1,a,naming,38,rabbit,820,correct,NA,Dec 16 2022 10:51:43,Agnieszka,1
63207,63207_session1_lista_naming_trial039_knife.wav,1,a,naming,39,knife,915,correct,NA,Dec 16 2022 10:51:51,Agnieszka,1
63207,63207_session1_lista_naming_trial040_sweet.wav,1,a,naming,40,sweet,-1,wrong_word,NA,Dec 16 2022 10:51:59,Agnieszka,1
63207,63207_session1_lista_naming_trial041_flag.wav,1,a,naming,41,flag,1196,correct,NA,Dec 16 2022 10:52:28,Agnieszka,1
63207,63207_session1_lista_naming_trial042_key.wav,1,a,naming,42,key,1055,correct,NA,Dec 16 2022 10:52:35,Agnieszka,1
63207,63207_session1_lista_naming_trial043_crab.wav,1,a,naming,43,crab,845,correct,NA,Dec 16 2022 10:52:44,Agnieszka,1
63207,63207_session1_lista_naming_trial044_bracelet.wav,1,a,naming,44,bracelet,-1,no_resp,NA,Dec 16 2022 10:52:54,Agnieszka,1
63207,63207_session1_lista_naming_trial045_goat.wav,1,a,naming,45,goat,888,correct,NA,Dec 16 2022 10:53:21,Agnieszka,1
63207,63207_session1_lista_naming_trial046_sausage.wav,1,a,naming,46,sausage,1135,correct,NA,Dec 16 2022 10:53:29,Agnieszka,1
63207,63207_session1_lista_naming_trial047_fox.wav,1,a,naming,47,fox,938,correct,NA,Dec 16 2022 10:53:37,Agnieszka,1
63207,63207_session1_lista_naming_trial048_shield.wav,1,a,naming,48,shield,982,correct,NA,Dec 16 2022 10:53:45,Agnieszka,1
63207,63207_session1_lista_naming_trial049_medal.wav,1,a,naming,49,medal,1218,correct,NA,Dec 16 2022 10:53:52,Agnieszka,1
63207,63207_session1_lista_naming_trial050_dummy.wav,1,a,naming,50,dummy,1369,correct,NA,Dec 16 2022 10:54:18,Agnieszka,1
63207,63207_session1_lista_naming_trial051_submarine.wav,1,a,naming,51,submarine,1234,correct,NA,Dec 16 2022 10:56:03,Agnieszka,1
63207,63207_session1_lista_naming_trial052_olive.wav,1,a,naming,52,olive,-1,no_resp,NA,Dec 16 2022 10:56:08,Agnieszka,1
63207,63207_session1_lista_naming_trial053_gym.wav,1,a,naming,53,gym,-1,wrong_word,NA,Dec 16 2022 10:56:19,Agnieszka,1
63207,63207_session1_lista_naming_trial054_tomato.wav,1,a,naming,54,tomato,2017,correct,NA,Dec 16 2022 10:57:19,Agnieszka,1
63207,63207_session1_lista_naming_trial055_whale.wav,1,a,naming,55,whale,976,correct,NA,Dec 16 2022 10:57:46,Agnieszka,1
63207,63207_session1_lista_naming_trial056_ear.wav,1,a,naming,56,ear,788,correct,NA,Dec 16 2022 10:58:09,Agnieszka,1
63207,63207_session1_lista_naming_trial057_peg.wav,1,a,naming,57,peg,1081,correct,NA,Dec 16 2022 10:58:20,Agnieszka,1
63207,63207_session1_lista_naming_trial058_soap.wav,1,a,naming,58,soap,1145,correct,NA,Dec 16 2022 10:58:27,Agnieszka,1
63207,63207_session1_lista_naming_trial059_triangle.wav,1,a,naming,59,triangle,813,correct,NA,Dec 16 2022 10:58:35,Agnieszka,1
63207,63207_session1_lista_naming_trial060_nest.wav,1,a,naming,60,nest,1017,correct,NA,Dec 16 2022 10:58:43,Agnieszka,1
63207,63207_session1_lista_naming_trial061_bone.wav,1,a,naming,61,bone,1017,correct,NA,Dec 16 2022 10:58:53,Agnieszka,1
63207,63207_session1_lista_naming_trial062_tree.wav,1,a,naming,62,tree,724,correct,NA,Dec 16 2022 10:59:01,Agnieszka,1
63207,63207_session1_lista_naming_trial063_rocket.wav,1,a,naming,63,rocket,842,correct,NA,Dec 16 2022 10:59:09,Agnieszka,1
63207,63207_session1_lista_naming_trial064_bike.wav,1,a,naming,64,bike,1202,correct,NA,Dec 16 2022 10:59:16,Agnieszka,1
63207,63207_session1_lista_naming_trial065_boxer.wav,1,a,naming,65,boxer,950,correct,NA,Dec 16 2022 10:59:23,Agnieszka,1
63207,63207_session1_lista_naming_trial066_map.wav,1,a,naming,66,map,852,correct,NA,Dec 16 2022 10:59:33,Agnieszka,1
63207,63207_session1_lista_naming_trial067_heel.wav,1,a,naming,67,heel,966,correct,NA,Dec 16 2022 10:59:47,Agnieszka,1
63207,63207_session1_lista_naming_trial068_carrot.wav,1,a,naming,68,carrot,804,correct,NA,Dec 16 2022 11:00:00,Agnieszka,1
63207,63207_session1_lista_naming_trial069_pipe.wav,1,a,naming,69,pipe,-1,no_resp,NA,Dec 16 2022 11:00:08,Agnieszka,1
63207,63207_session1_lista_naming_trial070_pear.wav,1,a,naming,70,pear,931,correct,NA,Dec 16 2022 11:00:18,Agnieszka,1
63207,63207_session1_lista_naming_trial071_doughnut.wav,1,a,naming,71,doughnut,-1,disfluency,'uh doughnut',Dec 16 2022 11:00:36,Agnieszka,1
63207,63207_session1_lista_naming_trial072_wing.wav,1,a,naming,72,wing,924,correct,NA,Dec 16 2022 11:00:51,Agnieszka,1
63207,63207_session1_lista_naming_trial073_circle.wav,1,a,naming,73,circle,1129,correct,NA,Dec 16 2022 11:00:59,Agnieszka,1
63207,63207_session1_lista_naming_trial074_bear.wav,1,a,naming,74,bear,1090,correct,NA,Dec 16 2022 11:01:07,Agnieszka,1
63207,63207_session1_lista_naming_trial075_candle.wav,1,a,naming,75,candle,1272,correct,NA,Dec 16 2022 11:01:14,Agnieszka,1
63207,63207_session1_lista_naming_trial076_ruler.wav,1,a,naming,76,ruler,1304,correct,NA,Dec 16 2022 11:01:25,Agnieszka,1
63207,63207_session1_lista_naming_trial077_drum.wav,1,a,naming,77,drum,913,correct,NA,Dec 16 2022 11:01:31,Agnieszka,1
63207,63207_session1_lista_naming_trial078_curtain.wav,1,a,naming,78,curtain,1339,correct,NA,Dec 16 2022 11:01:38,Agnieszka,1
63207,63207_session1_lista_naming_trial079_sword.wav,1,a,naming,79,sword,1508,correct,NA,Dec 16 2022 11:01:44,Agnieszka,1
63207,63207_session1_lista_naming_trial080_shoe.wav,1,a,naming,80,shoe,1033,correct,NA,Dec 16 2022 11:01:53,Agnieszka,1
63207,63207_session1_lista_naming_trial081_lung.wav,1,a,naming,81,lung,1151,correct,NA,Dec 16 2022 11:02:03,Agnieszka,1
63207,63207_session1_lista_naming_trial082_tractor.wav,1,a,naming,82,tractor,960,correct,NA,Dec 16 2022 11:02:13,Agnieszka,1
63207,63207_session1_lista_naming_trial083_hippo.wav,1,a,naming,83,hippo,-1,disfluency,NA,Dec 16 2022 11:02:20,Agnieszka,1
63207,63207_session1_lista_naming_trial084_wheelbarrow.wav,1,a,naming,84,wheelbarrow,-1,wrong_word,NA,Dec 16 2022 11:02:31,Agnieszka,1
63207,63207_session1_lista_naming_trial085_tongue.wav,1,a,naming,85,tongue,903,correct,NA,Dec 16 2022 11:02:40,Agnieszka,1
63207,63207_session1_lista_naming_trial086_bench.wav,1,a,naming,86,bench,1014,correct,NA,Dec 16 2022 11:02:47,Agnieszka,1
63207,63207_session1_lista_naming_trial087_tattoo.wav,1,a,naming,87,tattoo,1654,correct,NA,Dec 16 2022 11:02:54,Agnieszka,1
63207,63207_session1_lista_naming_trial088_bus.wav,1,a,naming,88,bus,1543,correct,NA,Dec 16 2022 11:03:01,Agnieszka,1
63207,63207_session1_lista_naming_trial089_island.wav,1,a,naming,89,island,1052,correct,NA,Dec 16 2022 11:03:09,Agnieszka,1
63207,63207_session1_lista_naming_trial090_pocket.wav,1,a,naming,90,pocket,1399,correct,NA,Dec 16 2022 11:03:21,Agnieszka,1
63207,63207_session1_lista_naming_trial091_glove.wav,1,a,naming,91,glove,918,correct,NA,Dec 16 2022 11:03:52,Agnieszka,1
63207,63207_session1_lista_naming_trial092_fork.wav,1,a,naming,92,fork,-1,wrong_word,NA,Dec 16 2022 11:04:00,Agnieszka,1
63207,63207_session1_lista_naming_trial093_flipper.wav,1,a,naming,93,flipper,1985,correct,NA,Dec 16 2022 11:04:13,Agnieszka,1
63207,63207_session1_lista_naming_trial094_tap.wav,1,a,naming,94,tap,1202,correct,NA,Dec 16 2022 11:04:23,Agnieszka,1
63207,63207_session1_lista_naming_trial095_avocado.wav,1,a,naming,95,avocado,1043,correct,NA,Dec 16 2022 11:04:30,Agnieszka,1
63207,63207_session1_lista_naming_trial096_wave.wav,1,a,naming,96,wave,1457,correct,NA,Dec 16 2022 11:04:39,Agnieszka,1
63207,63207_session1_lista_naming_trial097_pepper.wav,1,a,naming,97,pepper,1396,correct,NA,Dec 16 2022 11:04:47,Agnieszka,1
63207,63207_session1_lista_naming_trial098_suitcase.wav,1,a,naming,98,suitcase,-1,wrong_word,NA,Dec 16 2022 11:04:57,Agnieszka,1
63207,63207_session1_lista_naming_trial099_shower.wav,1,a,naming,99,shower,1049,correct,NA,Dec 16 2022 11:05:03,Agnieszka,1
63207,63207_session1_lista_naming_trial100_cherry.wav,1,a,naming,100,cherry,1473,correct,NA,Dec 16 2022 11:05:12,Agnieszka,1
63207,63207_session1_lista_naming_trial101_coat.wav,1,a,naming,101,coat,992,correct,NA,Dec 16 2022 11:05:22,Agnieszka,1
63207,63207_session1_lista_naming_trial102_scissors.wav,1,a,naming,102,scissors,1049,correct,NA,Dec 16 2022 11:05:29,Agnieszka,1
63207,63207_session1_lista_naming_trial103_elbow.wav,1,a,naming,103,elbow,960,correct,NA,Dec 16 2022 11:05:37,Agnieszka,1
63207,63207_session1_lista_naming_trial104_mermaid.wav,1,a,naming,104,mermaid,1030,correct,NA,Dec 16 2022 11:05:44,Agnieszka,1
63207,63207_session1_lista_naming_trial105_zebra.wav,1,a,naming,105,zebra,839,correct,NA,Dec 16 2022 11:05:53,Agnieszka,1
63207,63207_session1_lista_naming_trial106_compass.wav,1,a,naming,106,compass,1141,correct,NA,Dec 16 2022 11:06:05,Agnieszka,1
63207,63207_session1_lista_naming_trial107_clown.wav,1,a,naming,107,clown,1055,correct,sounds like 'crum' to me but it's probably just the accent?,Dec 16 2022 11:06:40,Agnieszka,1
63207,63207_session1_lista_naming_trial108_flower.wav,1,a,naming,108,flower,1355,correct,NA,Dec 16 2022 11:07:12,Agnieszka,1
63207,63207_session1_lista_naming_trial109_tiger.wav,1,a,naming,109,tiger,794,correct,NA,Dec 16 2022 11:07:21,Agnieszka,1
63207,63207_session1_lista_naming_trial110_doctor.wav,1,a,naming,110,doctor,874,correct,NA,Dec 16 2022 11:07:30,Agnieszka,1
63207,63207_session1_lista_naming_trial111_fridge.wav,1,a,naming,111,fridge,915,correct,NA,Dec 16 2022 11:07:38,Agnieszka,1
63207,63207_session1_lista_naming_trial112_squirrel.wav,1,a,naming,112,squirrel,922,correct,NA,Dec 16 2022 11:07:46,Agnieszka,1
63207,63207_session1_lista_naming_trial113_saw.wav,1,a,naming,113,saw,-1,disfluency,NA,Dec 16 2022 11:07:54,Agnieszka,1
63207,63207_session1_lista_naming_trial114_battery.wav,1,a,naming,114,battery,1062,correct,NA,Dec 16 2022 11:08:02,Agnieszka,1
63207,63207_session1_lista_naming_trial115_judge.wav,1,a,naming,115,judge,1129,correct,NA,Dec 16 2022 11:08:10,Agnieszka,1
63207,63207_session1_lista_naming_trial116_pencil.wav,1,a,naming,116,pencil,931,correct,NA,Dec 16 2022 11:08:18,Agnieszka,1
63207,63207_session1_lista_naming_trial117_bib.wav,1,a,naming,117,bib,-1,no_resp,NA,Dec 16 2022 11:08:26,Agnieszka,1
63207,63207_session1_lista_naming_trial118_koala.wav,1,a,naming,118,koala,1364,correct,NA,Dec 16 2022 11:08:48,Agnieszka,1
63207,63207_session1_lista_naming_trial119_helicopter.wav,1,a,naming,119,helicopter,992,correct,NA,Dec 16 2022 11:08:59,Agnieszka,1
63207,63207_session1_lista_naming_trial120_net.wav,1,a,naming,120,net,747,correct,NA,Dec 16 2022 11:09:10,Agnieszka,1
63207,63207_session1_lista_naming_trial121_bullet.wav,1,a,naming,121,bullet,899,correct,NA,Dec 16 2022 11:09:18,Agnieszka,1
63207,63207_session1_lista_naming_trial122_lighthouse.wav,1,a,naming,122,lighthouse,-1,disfluency,NA,Dec 16 2022 11:09:42,Agnieszka,1
63207,63207_session1_lista_naming_trial123_thumb.wav,1,a,naming,123,thumb,817,correct,NA,Dec 16 2022 11:09:51,Agnieszka,1
63207,63207_session1_lista_naming_trial124_drawer.wav,1,a,naming,124,drawer,1167,correct,NA,Dec 16 2022 11:09:58,Agnieszka,1
63207,63207_session1_lista_naming_trial125_fairy.wav,1,a,naming,125,fairy,995,correct,NA,Dec 16 2022 11:10:05,Agnieszka,1
63207,63207_session1_lista_naming_trial126_onion.wav,1,a,naming,126,onion,1081,correct,NA,Dec 16 2022 11:10:14,Agnieszka,1
63207,63207_session1_lista_naming_trial127_wall.wav,1,a,naming,127,wall,915,correct,NA,Dec 16 2022 11:10:22,Agnieszka,1
63207,63207_session1_lista_naming_trial128_kitchen.wav,1,a,naming,128,kitchen,1262,correct,NA,Dec 16 2022 11:10:30,Agnieszka,1
63207,63207_session1_lista_naming_trial129_pineapple.wav,1,a,naming,129,pineapple,989,correct,NA,Dec 16 2022 11:10:39,Agnieszka,1
63207,63207_session1_lista_naming_trial130_fence.wav,1,a,naming,130,fence,979,correct,NA,Dec 16 2022 11:10:52,Agnieszka,1
63207,63207_session1_lista_naming_trial131_teacher.wav,1,a,naming,131,teacher,1020,correct,NA,Dec 16 2022 11:11:03,Agnieszka,1
63207,63207_session1_lista_naming_trial132_cork.wav,1,a,naming,132,cork,1661,correct,NA,Dec 16 2022 11:11:11,Agnieszka,1
63207,63207_session1_lista_naming_trial133_snake.wav,1,a,naming,133,snake,702,correct,NA,Dec 16 2022 11:11:19,Agnieszka,1
63207,63207_session1_lista_naming_trial134_zip.wav,1,a,naming,134,zip,868,correct,NA,Dec 16 2022 11:11:26,Agnieszka,1
63207,63207_session1_lista_naming_trial135_donkey.wav,1,a,naming,135,donkey,1116,correct,NA,Dec 16 2022 11:11:59,Agnieszka,1
63207,63207_session1_lista_naming_trial136_bottle.wav,1,a,naming,136,bottle,918,correct,NA,Dec 16 2022 11:12:08,Agnieszka,1
63207,63207_session1_lista_naming_trial137_queen.wav,1,a,naming,137,queen,797,correct,NA,Dec 16 2022 11:12:19,Agnieszka,1
63207,63207_session1_lista_naming_trial138_rhino.wav,1,a,naming,138,rhino,1205,correct,NA,Dec 16 2022 11:12:26,Agnieszka,1
63207,63207_session1_lista_naming_trial139_butterfly.wav,1,a,naming,139,butterfly,960,correct,NA,Dec 16 2022 11:12:34,Agnieszka,1
63207,63207_session1_lista_naming_trial140_tunnel.wav,1,a,naming,140,tunnel,1195,correct,NA,Dec 16 2022 11:13:04,Agnieszka,1
63207,63207_session1_lista_naming_trial141_magnet.wav,1,a,naming,141,magnet,1275,correct,NA,Dec 16 2022 11:13:11,Agnieszka,1
63207,63207_session1_lista_naming_trial142_mountain.wav,1,a,naming,142,mountain,1206,correct,NA,Dec 16 2022 11:13:23,Agnieszka,1
63207,63207_session1_lista_naming_trial143_mouth.wav,1,a,naming,143,mouth,1740,correct,NA,Dec 16 2022 11:13:35,Agnieszka,1
63207,63207_session1_lista_naming_trial144_bull.wav,1,a,naming,144,bull,2283,correct,NA,Dec 16 2022 11:13:54,Agnieszka,1
63207,63207_session1_lista_naming_trial145_lamp.wav,1,a,naming,145,lamp,1148,correct,NA,Dec 16 2022 11:14:02,Agnieszka,1
63207,63207_session1_lista_naming_trial146_star.wav,1,a,naming,146,star,727,correct,NA,Dec 16 2022 11:14:12,Agnieszka,1
63207,63207_session1_lista_naming_trial147_arm.wav,1,a,naming,147,arm,1218,correct,NA,Dec 16 2022 11:14:22,Agnieszka,1
63207,63207_session1_lista_naming_trial148_bell.wav,1,a,naming,148,bell,-1,wrong_word,NA,Dec 16 2022 11:14:30,Agnieszka,1
63207,63207_session1_lista_naming_trial149_dice.wav,1,a,naming,149,dice,1410,correct,NA,Dec 16 2022 11:14:57,Agnieszka,1
63207,63207_session1_lista_naming_trial150_tambourine.wav,1,a,naming,150,tambourine,1161,correct,NA,Dec 16 2022 11:15:04,Agnieszka,1
