Participant_ID,File_Name,Session,List,Type_Trial,Trial_Nbr,Target,RT,Response_Trial,Comment,Date_Correction,Assessor_Name,Processed
63654,63654_session2_listb_naming_trial001_hair.wav,2,b,naming,1,hair,845,correct,NA,Jan  2 2023 10:39:57,Agnieszka,1
63654,63654_session2_listb_naming_trial002_cloud.wav,2,b,naming,2,cloud,755,correct,NA,Jan  2 2023 10:40:23,Agnieszka,1
63654,63654_session2_listb_naming_trial003_sock.wav,2,b,naming,3,sock,792,correct,NA,Jan  2 2023 10:40:50,Agnieszka,1
63654,63654_session2_listb_naming_trial004_condom.wav,2,b,naming,4,condom,854,correct,NA,Jan  2 2023 10:41:08,Agnieszka,1
63654,63654_session2_listb_naming_trial005_thermometer.wav,2,b,naming,5,thermometer,833,correct,NA,Jan  2 2023 10:41:45,Agnieszka,1
63654,63654_session2_listb_naming_trial006_bible.wav,2,b,naming,6,bible,850,correct,NA,Jan  2 2023 10:42:05,Agnieszka,1
63654,63654_session2_listb_naming_trial007_umbrella.wav,2,b,naming,7,umbrella,979,uncertain,the word is correct but there seems to be a short "mm" before speaking?,Jan  2 2023 10:43:09,Agnieszka,1
63654,63654_session2_listb_naming_trial008_back.wav,2,b,naming,8,back,816,correct,NA,Jan  2 2023 10:43:30,Agnieszka,1
63654,63654_session2_listb_naming_trial009_screwdriver.wav,2,b,naming,9,screwdriver,925,correct,NA,Jan  2 2023 10:43:48,Agnieszka,1
63654,63654_session2_listb_naming_trial010_vein.wav,2,b,naming,10,vein,839,correct,NA,Jan  2 2023 10:43:56,Agnieszka,1
63654,63654_session2_listb_naming_trial011_cowboy.wav,2,b,naming,11,cowboy,702,correct,NA,Jan  2 2023 10:44:11,Agnieszka,1
63654,63654_session2_listb_naming_trial012_printer.wav,2,b,naming,12,printer,912,correct,NA,Jan  2 2023 10:44:28,Agnieszka,1
63654,63654_session2_listb_naming_trial013_dentist.wav,2,b,naming,13,dentist,1225,correct,NA,Jan  2 2023 10:44:43,Agnieszka,1
63654,63654_session2_listb_naming_trial014_fire.wav,2,b,naming,14,fire,818,correct,NA,Jan  2 2023 10:46:07,Agnieszka,1
63654,63654_session2_listb_naming_trial015_stapler.wav,2,b,naming,15,stapler,753,correct,NA,Jan  2 2023 10:46:24,Agnieszka,1
63654,63654_session2_listb_naming_trial016_chair.wav,2,b,naming,16,chair,688,correct,NA,Jan  2 2023 10:46:43,Agnieszka,1
63654,63654_session2_listb_naming_trial017_mirror.wav,2,b,naming,17,mirror,755,correct,NA,Jan  2 2023 10:47:04,Agnieszka,1
63654,63654_session2_listb_naming_trial018_pirate.wav,2,b,naming,18,pirate,1078,correct,NA,Jan  2 2023 10:47:13,Agnieszka,1
63654,63654_session2_listb_naming_trial019_spider.wav,2,b,naming,19,spider,778,correct,NA,Jan  2 2023 10:47:26,Agnieszka,1
63654,63654_session2_listb_naming_trial020_gun.wav,2,b,naming,20,gun,727,correct,NA,Jan  2 2023 10:47:41,Agnieszka,1
63654,63654_session2_listb_naming_trial021_earring.wav,2,b,naming,21,earring,782,correct,NA,Jan  2 2023 10:48:26,Agnieszka,1
63654,63654_session2_listb_naming_trial022_witch.wav,2,b,naming,22,witch,1636,correct,NA,Jan  2 2023 10:48:48,Agnieszka,1
63654,63654_session2_listb_naming_trial023_football.wav,2,b,naming,23,football,804,correct,NA,Jan  2 2023 10:49:16,Agnieszka,1
63654,63654_session2_listb_naming_trial024_ring.wav,2,b,naming,24,ring,846,correct,NA,Jan  2 2023 10:49:39,Agnieszka,1
63654,63654_session2_listb_naming_trial025_moustache.wav,2,b,naming,25,moustache,710,correct,NA,Jan  2 2023 10:50:06,Agnieszka,1
63654,63654_session2_listb_naming_trial026_choir.wav,2,b,naming,26,choir,817,correct,NA,Jan  2 2023 10:50:23,Agnieszka,1
63654,63654_session2_listb_naming_trial027_scarf.wav,2,b,naming,27,scarf,820,correct,NA,Jan  2 2023 10:50:31,Agnieszka,1
63654,63654_session2_listb_naming_trial028_handle.wav,2,b,naming,28,handle,931,correct,NA,Jan  2 2023 10:51:05,Agnieszka,1
63654,63654_session2_listb_naming_trial029_bat.wav,2,b,naming,29,bat,775,correct,NA,Jan  2 2023 10:51:15,Agnieszka,1
63654,63654_session2_listb_naming_trial030_shirt.wav,2,b,naming,30,shirt,944,correct,NA,Jan  2 2023 10:51:25,Agnieszka,1
63654,63654_session2_listb_naming_trial031_calendar.wav,2,b,naming,31,calendar,778,correct,NA,Jan  2 2023 10:55:32,Agnieszka,1
63654,63654_session2_listb_naming_trial032_elephant.wav,2,b,naming,32,elephant,917,correct,NA,Jan  2 2023 10:55:51,Agnieszka,1
63654,63654_session2_listb_naming_trial033_bra.wav,2,b,naming,33,bra,781,correct,NA,Jan  2 2023 10:56:18,Agnieszka,1
63654,63654_session2_listb_naming_trial034_waiter.wav,2,b,naming,34,waiter,756,correct,NA,Jan  2 2023 10:56:27,Agnieszka,1
63654,63654_session2_listb_naming_trial035_nose.wav,2,b,naming,35,nose,648,correct,NA,Jan  2 2023 10:56:41,Agnieszka,1
63654,63654_session2_listb_naming_trial036_apron.wav,2,b,naming,36,apron,804,correct,NA,Jan  2 2023 10:56:54,Agnieszka,1
63654,63654_session2_listb_naming_trial037_foot.wav,2,b,naming,37,foot,1523,correct,NA,Jan  2 2023 10:57:08,Agnieszka,1
63654,63654_session2_listb_naming_trial038_finger.wav,2,b,naming,38,finger,817,correct,NA,Jan  2 2023 10:57:39,Agnieszka,1
63654,63654_session2_listb_naming_trial039_girl.wav,2,b,naming,39,girl,852,correct,NA,Jan  2 2023 10:57:55,Agnieszka,1
63654,63654_session2_listb_naming_trial040_diamond.wav,2,b,naming,40,diamond,852,correct,NA,Jan  2 2023 10:58:05,Agnieszka,1
63654,63654_session2_listb_naming_trial041_egg.wav,2,b,naming,41,egg,855,correct,NA,Jan  2 2023 10:58:12,Agnieszka,1
63654,63654_session2_listb_naming_trial042_sink.wav,2,b,naming,42,sink,915,correct,NA,Jan  2 2023 10:58:20,Agnieszka,1
63654,63654_session2_listb_naming_trial043_pumpkin.wav,2,b,naming,43,pumpkin,721,correct,NA,Jan  2 2023 10:58:30,Agnieszka,1
63654,63654_session2_listb_naming_trial044_man.wav,2,b,naming,44,man,854,correct,NA,Jan  2 2023 10:58:46,Agnieszka,1
63654,63654_session2_listb_naming_trial045_glasses.wav,2,b,naming,45,glasses,1243,correct,NA,Jan  2 2023 10:59:00,Agnieszka,1
63654,63654_session2_listb_naming_trial046_eye.wav,2,b,naming,46,eye,845,correct,NA,Jan  2 2023 10:59:10,Agnieszka,1
63654,63654_session2_listb_naming_trial047_pool.wav,2,b,naming,47,pool,731,correct,NA,Jan  2 2023 10:59:22,Agnieszka,1
63654,63654_session2_listb_naming_trial048_boomerang.wav,2,b,naming,48,boomerang,738,correct,NA,Jan  2 2023 10:59:44,Agnieszka,1
63654,63654_session2_listb_naming_trial049_dolphin.wav,2,b,naming,49,dolphin,827,correct,NA,Jan  2 2023 11:00:02,Agnieszka,1
63654,63654_session2_listb_naming_trial050_road.wav,2,b,naming,50,road,1039,correct,NA,Jan  2 2023 11:00:19,Agnieszka,1
63654,63654_session2_listb_naming_trial051_lab.wav,2,b,naming,51,lab,930,uncertain,the "l" sound is very quiet,Jan  2 2023 11:01:10,Agnieszka,1
63654,63654_session2_listb_naming_trial052_ambulance.wav,2,b,naming,52,ambulance,849,correct,NA,Jan  2 2023 11:01:34,Agnieszka,1
63654,63654_session2_listb_naming_trial053_crown.wav,2,b,naming,53,crown,871,correct,NA,Jan  2 2023 11:01:50,Agnieszka,1
63654,63654_session2_listb_naming_trial054_cannon.wav,2,b,naming,54,cannon,785,correct,NA,Jan  2 2023 11:01:58,Agnieszka,1
63654,63654_session2_listb_naming_trial055_dinosaur.wav,2,b,naming,55,dinosaur,822,correct,NA,Jan  2 2023 11:02:13,Agnieszka,1
63654,63654_session2_listb_naming_trial056_fruit.wav,2,b,naming,56,fruit,883,correct,NA,Jan  2 2023 11:02:25,Agnieszka,1
63654,63654_session2_listb_naming_trial057_coffee.wav,2,b,naming,57,coffee,1260,correct,NA,Jan  2 2023 11:02:39,Agnieszka,1
63654,63654_session2_listb_naming_trial058_asparagus.wav,2,b,naming,58,asparagus,-1,uncertain,cannot find the initial 'a' sound,Jan  2 2023 11:04:14,Agnieszka,1
63654,63654_session2_listb_naming_trial059_cactus.wav,2,b,naming,59,cactus,919,correct,NA,Jan  2 2023 11:04:32,Agnieszka,1
63654,63654_session2_listb_naming_trial060_duck.wav,2,b,naming,60,duck,797,correct,NA,Jan  2 2023 11:05:00,Agnieszka,1
63654,63654_session2_listb_naming_trial061_iron.wav,2,b,naming,61,iron,839,correct,NA,Jan  2 2023 11:05:08,Agnieszka,1
63654,63654_session2_listb_naming_trial062_greenhouse.wav,2,b,naming,62,greenhouse,2142,correct,NA,Jan  2 2023 11:05:26,Agnieszka,1
63654,63654_session2_listb_naming_trial063_fan.wav,2,b,naming,63,fan,737,correct,NA,Jan  2 2023 11:06:05,Agnieszka,1
63654,63654_session2_listb_naming_trial064_heart.wav,2,b,naming,64,heart,727,correct,NA,Jan  2 2023 11:06:35,Agnieszka,1
63654,63654_session2_listb_naming_trial065_dog.wav,2,b,naming,65,dog,807,correct,NA,Jan  2 2023 11:06:50,Agnieszka,1
63654,63654_session2_listb_naming_trial066_glass.wav,2,b,naming,66,glass,842,correct,NA,Jan  2 2023 11:07:01,Agnieszka,1
63654,63654_session2_listb_naming_trial067_scarecrow.wav,2,b,naming,67,scarecrow,801,correct,NA,Jan  2 2023 11:07:15,Agnieszka,1
63654,63654_session2_listb_naming_trial068_baby.wav,2,b,naming,68,baby,836,correct,NA,Jan  2 2023 11:07:24,Agnieszka,1
63654,63654_session2_listb_naming_trial069_coconut.wav,2,b,naming,69,coconut,731,correct,NA,Jan  2 2023 11:07:32,Agnieszka,1
63654,63654_session2_listb_naming_trial070_pizza.wav,2,b,naming,70,pizza,759,correct,NA,Jan  2 2023 11:07:39,Agnieszka,1
63654,63654_session2_listb_naming_trial071_skull.wav,2,b,naming,71,skull,680,correct,NA,Jan  2 2023 11:07:48,Agnieszka,1
63654,63654_session2_listb_naming_trial072_giraffe.wav,2,b,naming,72,giraffe,992,correct,NA,Jan  2 2023 11:07:59,Agnieszka,1
63654,63654_session2_listb_naming_trial073_broom.wav,2,b,naming,73,broom,820,correct,NA,Jan  2 2023 11:08:09,Agnieszka,1
63654,63654_session2_listb_naming_trial074_dragon.wav,2,b,naming,74,dragon,832,correct,NA,Jan  2 2023 11:08:27,Agnieszka,1
63654,63654_session2_listb_naming_trial075_bed.wav,2,b,naming,75,bed,753,correct,NA,Jan  2 2023 11:08:34,Agnieszka,1
63654,63654_session2_listb_naming_trial076_face.wav,2,b,naming,76,face,706,correct,NA,Jan  2 2023 11:09:09,Agnieszka,1
63654,63654_session2_listb_naming_trial077_desert.wav,2,b,naming,77,desert,851,correct,NA,Jan  2 2023 11:10:51,Agnieszka,1
63654,63654_session2_listb_naming_trial078_airport.wav,2,b,naming,78,airport,906,correct,NA,Jan  2 2023 11:10:59,Agnieszka,1
63654,63654_session2_listb_naming_trial079_lion.wav,2,b,naming,79,lion,831,correct,NA,Jan  2 2023 11:11:14,Agnieszka,1
63654,63654_session2_listb_naming_trial080_hand.wav,2,b,naming,80,hand,613,correct,NA,Jan  2 2023 11:11:46,Agnieszka,1
63654,63654_session2_listb_naming_trial081_farm.wav,2,b,naming,81,farm,976,correct,NA,Jan  2 2023 11:12:22,Agnieszka,1
63654,63654_session2_listb_naming_trial082_button.wav,2,b,naming,82,button,797,correct,NA,Jan  2 2023 11:12:32,Agnieszka,1
63654,63654_session2_listb_naming_trial083_banana.wav,2,b,naming,83,banana,743,correct,NA,Jan  2 2023 11:12:40,Agnieszka,1
63654,63654_session2_listb_naming_trial084_shark.wav,2,b,naming,84,shark,899,correct,NA,Jan  2 2023 11:12:52,Agnieszka,1
63654,63654_session2_listb_naming_trial085_cage.wav,2,b,naming,85,cage,832,correct,NA,Jan  2 2023 11:13:06,Agnieszka,1
63654,63654_session2_listb_naming_trial086_bedroom.wav,2,b,naming,86,bedroom,1304,correct,NA,Jan  2 2023 11:13:12,Agnieszka,1
63654,63654_session2_listb_naming_trial087_knee.wav,2,b,naming,87,knee,1033,correct,NA,Jan  2 2023 11:13:24,Agnieszka,1
63654,63654_session2_listb_naming_trial088_mask.wav,2,b,naming,88,mask,842,correct,NA,Jan  2 2023 11:13:36,Agnieszka,1
63654,63654_session2_listb_naming_trial089_fist.wav,2,b,naming,89,fist,1000,correct,NA,Jan  2 2023 11:13:48,Agnieszka,1
63654,63654_session2_listb_naming_trial090_trumpet.wav,2,b,naming,90,trumpet,1010,correct,NA,Jan  2 2023 11:14:07,Agnieszka,1
63654,63654_session2_listb_naming_trial091_lizard.wav,2,b,naming,91,lizard,969,correct,NA,Jan  2 2023 11:14:21,Agnieszka,1
63654,63654_session2_listb_naming_trial092_door.wav,2,b,naming,92,door,756,correct,NA,Jan  2 2023 11:14:40,Agnieszka,1
63654,63654_session2_listb_naming_trial093_television.wav,2,b,naming,93,television,-1,wrong_word,NA,Jan  2 2023 11:14:54,Agnieszka,1
63654,63654_session2_listb_naming_trial094_wallet.wav,2,b,naming,94,wallet,895,correct,NA,Jan  2 2023 11:15:12,Agnieszka,1
63654,63654_session2_listb_naming_trial095_pilot.wav,2,b,naming,95,pilot,863,correct,NA,Jan  2 2023 11:15:23,Agnieszka,1
63654,63654_session2_listb_naming_trial096_nurse.wav,2,b,naming,96,nurse,931,correct,NA,Jan  2 2023 11:15:35,Agnieszka,1
63654,63654_session2_listb_naming_trial097_honey.wav,2,b,naming,97,honey,847,correct,NA,Jan  2 2023 11:15:52,Agnieszka,1
63654,63654_session2_listb_naming_trial098_house.wav,2,b,naming,98,house,800,correct,NA,Jan  2 2023 11:19:11,Agnieszka,1
63654,63654_session2_listb_naming_trial099_coffin.wav,2,b,naming,99,coffin,954,correct,NA,Jan  2 2023 11:19:21,Agnieszka,1
63654,63654_session2_listb_naming_trial100_snail.wav,2,b,naming,100,snail,613,correct,NA,Jan  2 2023 11:19:30,Agnieszka,1
63654,63654_session2_listb_naming_trial101_caravan.wav,2,b,naming,101,caravan,1387,correct,NA,Jan  2 2023 11:19:41,Agnieszka,1
63654,63654_session2_listb_naming_trial102_parachute.wav,2,b,naming,102,parachute,836,correct,NA,Jan  2 2023 11:19:50,Agnieszka,1
63654,63654_session2_listb_naming_trial103_balloon.wav,2,b,naming,103,balloon,992,correct,NA,Jan  2 2023 11:20:07,Agnieszka,1
63654,63654_session2_listb_naming_trial104_camera.wav,2,b,naming,104,camera,794,correct,NA,Jan  2 2023 11:20:17,Agnieszka,1
63654,63654_session2_listb_naming_trial105_needle.wav,2,b,naming,105,needle,778,correct,NA,Jan  2 2023 11:20:33,Agnieszka,1
63654,63654_session2_listb_naming_trial106_skateboard.wav,2,b,naming,106,skateboard,998,correct,NA,Jan  2 2023 11:20:55,Agnieszka,1
63654,63654_session2_listb_naming_trial107_feather.wav,2,b,naming,107,feather,938,correct,NA,Jan  2 2023 11:21:04,Agnieszka,1
63654,63654_session2_listb_naming_trial108_nun.wav,2,b,naming,108,nun,1215,uncertain,prolonged initial 'n',Jan  2 2023 11:21:37,Agnieszka,1
63654,63654_session2_listb_naming_trial109_car.wav,2,b,naming,109,car,845,correct,NA,Jan  2 2023 11:21:57,Agnieszka,1
63654,63654_session2_listb_naming_trial110_butcher.wav,2,b,naming,110,butcher,971,correct,NA,Jan  2 2023 11:22:13,Agnieszka,1
63654,63654_session2_listb_naming_trial111_microphone.wav,2,b,naming,111,microphone,836,correct,NA,Jan  2 2023 11:22:20,Agnieszka,1
63654,63654_session2_listb_naming_trial112_cigarette.wav,2,b,naming,112,cigarette,828,correct,NA,Jan  2 2023 11:22:41,Agnieszka,1
63654,63654_session2_listb_naming_trial113_jar.wav,2,b,naming,113,jar,832,correct,NA,Jan  2 2023 11:22:53,Agnieszka,1
63654,63654_session2_listb_naming_trial114_devil.wav,2,b,naming,114,devil,1498,correct,NA,Jan  2 2023 11:23:07,Agnieszka,1
63654,63654_session2_listb_naming_trial115_tank.wav,2,b,naming,115,tank,692,correct,NA,Jan  2 2023 11:23:23,Agnieszka,1
63654,63654_session2_listb_naming_trial116_calculator.wav,2,b,naming,116,calculator,676,correct,NA,Jan  2 2023 11:23:39,Agnieszka,1
63654,63654_session2_listb_naming_trial117_watch.wav,2,b,naming,117,watch,871,correct,NA,Jan  2 2023 11:23:49,Agnieszka,1
63654,63654_session2_listb_naming_trial118_leaf.wav,2,b,naming,118,leaf,813,correct,NA,Jan  2 2023 11:24:04,Agnieszka,1
63654,63654_session2_listb_naming_trial119_bin.wav,2,b,naming,119,bin,906,correct,NA,Jan  2 2023 11:24:12,Agnieszka,1
63654,63654_session2_listb_naming_trial120_lemon.wav,2,b,naming,120,lemon,906,correct,NA,Jan  2 2023 11:24:24,Agnieszka,1
63654,63654_session2_listb_naming_trial121_skeleton.wav,2,b,naming,121,skeleton,848,correct,NA,Jan  2 2023 11:25:17,Agnieszka,1
63654,63654_session2_listb_naming_trial122_hedgehog.wav,2,b,naming,122,hedgehog,734,correct,NA,Jan  2 2023 11:25:30,Agnieszka,1
63654,63654_session2_listb_naming_trial123_brain.wav,2,b,naming,123,brain,753,correct,NA,Jan  2 2023 11:25:38,Agnieszka,1
63654,63654_session2_listb_naming_trial124_shadow.wav,2,b,naming,124,shadow,822,correct,NA,Jan  2 2023 11:25:54,Agnieszka,1
63654,63654_session2_listb_naming_trial125_guitar.wav,2,b,naming,125,guitar,1002,correct,NA,Jan  2 2023 11:26:14,Agnieszka,1
63654,63654_session2_listb_naming_trial126_penguin.wav,2,b,naming,126,penguin,804,correct,NA,Jan  2 2023 11:26:22,Agnieszka,1
63654,63654_session2_listb_naming_trial127_belt.wav,2,b,naming,127,belt,1119,correct,NA,Jan  2 2023 11:26:37,Agnieszka,1
63654,63654_session2_listb_naming_trial128_parrot.wav,2,b,naming,128,parrot,759,correct,NA,Jan  2 2023 11:26:45,Agnieszka,1
63654,63654_session2_listb_naming_trial129_torch.wav,2,b,naming,129,torch,782,correct,NA,Jan  2 2023 11:26:52,Agnieszka,1
63654,63654_session2_listb_naming_trial130_harp.wav,2,b,naming,130,harp,750,correct,NA,Jan  2 2023 11:27:06,Agnieszka,1
63654,63654_session2_listb_naming_trial131_broccoli.wav,2,b,naming,131,broccoli,807,correct,NA,Jan  2 2023 11:27:14,Agnieszka,1
63654,63654_session2_listb_naming_trial132_scorpion.wav,2,b,naming,132,scorpion,1014,correct,NA,Jan  2 2023 11:27:32,Agnieszka,1
63654,63654_session2_listb_naming_trial133_burger.wav,2,b,naming,133,burger,1348,correct,NA,Jan  2 2023 11:27:39,Agnieszka,1
63654,63654_session2_listb_naming_trial134_cone.wav,2,b,naming,134,cone,1419,correct,NA,Jan  2 2023 11:27:51,Agnieszka,1
63654,63654_session2_listb_naming_trial135_strawberry.wav,2,b,naming,135,strawberry,785,correct,NA,Jan  2 2023 11:28:01,Agnieszka,1
63654,63654_session2_listb_naming_trial136_frog.wav,2,b,naming,136,frog,724,correct,NA,Jan  2 2023 11:28:15,Agnieszka,1
63654,63654_session2_listb_naming_trial137_keyboard.wav,2,b,naming,137,keyboard,1160,correct,NA,Jan  2 2023 11:28:33,Agnieszka,1
63654,63654_session2_listb_naming_trial138_king.wav,2,b,naming,138,king,839,correct,NA,Jan  2 2023 11:28:44,Agnieszka,1
63654,63654_session2_listb_naming_trial139_swimming.wav,2,b,naming,139,swimming,848,correct,NA,Jan  2 2023 11:28:51,Agnieszka,1
63654,63654_session2_listb_naming_trial140_chain.wav,2,b,naming,140,chain,1052,correct,NA,Jan  2 2023 11:29:00,Agnieszka,1
63654,63654_session2_listb_naming_trial141_tooth.wav,2,b,naming,141,tooth,922,correct,NA,Jan  2 2023 11:29:07,Agnieszka,1
63654,63654_session2_listb_naming_trial142_beard.wav,2,b,naming,142,beard,801,correct,NA,Jan  2 2023 11:29:15,Agnieszka,1
63654,63654_session2_listb_naming_trial143_spoon.wav,2,b,naming,143,spoon,670,correct,NA,Jan  2 2023 11:29:28,Agnieszka,1
63654,63654_session2_listb_naming_trial144_volcano.wav,2,b,naming,144,volcano,1008,correct,NA,Jan  2 2023 11:29:42,Agnieszka,1
63654,63654_session2_listb_naming_trial145_ankle.wav,2,b,naming,145,ankle,1358,correct,NA,Jan  2 2023 11:29:50,Agnieszka,1
63654,63654_session2_listb_naming_trial146_roof.wav,2,b,naming,146,roof,989,correct,NA,Jan  2 2023 11:30:13,Agnieszka,1
63654,63654_session2_listb_naming_trial147_sheep.wav,2,b,naming,147,sheep,692,correct,NA,Jan  2 2023 11:30:23,Agnieszka,1
63654,63654_session2_listb_naming_trial148_well.wav,2,b,naming,148,well,-1,uncertain,possibly a disfluency?,Jan  2 2023 11:31:16,Agnieszka,1
63654,63654_session2_listb_naming_trial149_telephone.wav,2,b,naming,149,telephone,-1,wrong_word,NA,Jan  2 2023 11:31:23,Agnieszka,1
63654,63654_session2_listb_naming_trial150_maze.wav,2,b,naming,150,maze,855,correct,NA,Jan  2 2023 11:31:30,Agnieszka,1
